Folder: bto-mw-photocatal/xrd

Note: README.md
# Bismuth titanate microwave synthesis data

This upload contains raw data from bismuth titanate microwave synthesis.

Even though this is public, this is not meant for open usage and copyright
is reserved temporarily with me.

1. absorbance
2. xrd
3. tem/saed
4. photocatalysis data

File: SAIFXR190711G-01(A) .uxd
; (content of file E:\SAIF User Data\2019\Adrine Correya RS,ISP,CUSAT\190711G\SAIFXR190711G-01(A).raw)
_FILEVERSION = 2
_SAMPLE = A
_+SAMPLE =
_SITE = "Cochin Uni"
_USER = "Cochin Uni"
_GONIOMETER_CODE = 20
; Goniometer : D8 theta/2theta, stage : Unknown
_SAMPLE_CHANGER_CODE = 0
_ATTACHMENTS_CODE = 0
_GONIOMETER_RADIUS = 217.5
_FIXED_DIVSLIT = 0.15
_FIXED_SAMPLESLIT = 1
_SOLLER_SLITS = 2
_FIXED_DETSLIT = 1
_MONOCHROMATOR = 0
; Incident beam monochromator : None
_THIN_FILM = N
_BETA_FILTER = N
_FIXED_ANTISLIT = 0.15
_ANALYZER_CODE = 0
; Received beam analyzer : None
_DATEMEASURED = "15-Jul-2019 14:44:46"
_WL_UNIT = A
_WL1 = 1.5406
_WL2 = 1.54439
_WL3 = 1.39222
_WLRATIO = 0.5
_ANODE = Cu

; Data for range 1
_DRIVE = COUPLED
_STEPTIME = 59.67
_STEPSIZE = 0.0198849
_STEPMODE = C
_START = 3
_THETA = 1.5
_2THETA = 3
_KHI = 0
_PHI = 0
_X = 0
_Y = 0
_Z = 0
_DETECTOR = 5
; Detector type : Unknown
_DETECTORSLIT = out
_AUX1 = 0
_AUX2 = 0
_AUX3 = 0
_TIMESTARTED = 16
_TEMP_RATE = -1
_TEMP_DELAY = -1
_KV = 40
_MA = 40
_RANGE_WL = 1.5406
_3DPLANE = 0
_V4_COUNTERS_MASK = 4096
_V4_DRIVES_MASK = 0
_V4_ENCODERS_MASK = 0
_2THETACOUNTS = 1
; 2THETA  PSD
   3.0000       2315
   3.2585       1943
   3.5170       1813
   3.7755       1657
   4.0340       1478
   4.2925       1552
   4.5510       1416
   4.8095       1399
   5.0680       1383
   5.3265       1313
   5.5850       1223
   5.8435       1235
   6.1020       1266
   6.3605       1226
   6.6191       1245
   6.8776       1216
   7.1361       1145
   7.3946       1107
   7.6531       1087
   7.9116        962
   8.1701       1010
   8.4286       1105
   8.6871       1207
   8.9456       1110
   9.2041       1015
   9.4626        954
   9.7211        900
   9.9796        834
  10.2381        797
  10.4966        800
  10.7551        807
  11.0136        788
  11.2721        855
  11.5306        770
  11.7891        801
  12.0476        729
  12.3061        770
  12.5646        730
  12.8231        744
  13.0816        751
  13.3401        739
  13.5987        644
  13.8572        673
  14.1157        662
  14.3742        651
  14.6327        661
  14.8912        616
  15.1497        623
  15.4082        575
  15.6667        599
  15.9252        580
  16.1837        602
  16.4422        561
  16.7007        579
  16.9592        572
  17.2177        545
  17.4762        614
  17.7347        609
  17.9932        572
  18.2517        534
  18.5102        566
  18.7687        521
  19.0272        572
  19.2857        512
  19.5442        513
  19.8027        562
  20.0612        518
  20.3197        527
  20.5783        495
  20.8368        489
  21.0953        489
  21.3538        518
  21.6123        516
  21.8708        523
  22.1293        511
  22.3878        510
  22.6463        487
  22.9048        530
  23.1633        545
  23.4218        602
  23.6803        785
  23.9388        736
  24.1973        622
  24.4558        569
  24.7143        577
  24.9728        593
  25.2313        630
  25.4898        654
  25.7483        678
  26.0068        698
  26.2653        687
  26.5238        785
  26.7823        775
  27.0408        810
  27.2993        906
  27.5579       1014
  27.8164       1468
  28.0749       3015
  28.3334       2064
  28.5919       1224
  28.8504       1194
  29.1089       1205
  29.3674        841
  29.6259        808
  29.8844        815
  30.1429        736
  30.4014        754
  30.6599        733
  30.9184        739
  31.1769        763
  31.4354        948
  31.6939       1519
  31.9524        912
  32.2109        714
  32.4694        572
  32.7279        613
  32.9864        620
  33.2449        603
  33.5034        574
  33.7619        601
  34.0204        647
  34.2789        703
  34.5375        681
  34.7960        560
  35.0545        548
  35.3130        499
  35.5715        437
  35.8300        424
  36.0885        411
  36.3470        449
  36.6055        400
  36.8640        395
  37.1225        368
  37.3810        370
  37.6395        364
  37.8980        402
  38.1565        373
  38.4150        383
  38.6735        344
  38.9320        364
  39.1905        291
  39.4490        308
  39.7075        361
  39.9660        370
  40.2245        403
  40.4830        390
  40.7415        435
  41.0000        526
  41.2585        463
  41.5171        453
  41.7756        393
  42.0341        367
  42.2926        373
  42.5511        397
  42.8096        374
  43.0681        418
  43.3266        411
  43.5851        384
  43.8436        391
  44.1021        430
  44.3606        412
  44.6191        433
  44.8776        452
  45.1361        574
  45.3946        687
  45.6531        676
  45.9116        567
  46.1701        509
  46.4286        498
  46.6871        500
  46.9456        522
  47.2041        595
  47.4626        711
  47.7211        650
  47.9796        555
  48.2381        538
  48.4967        538
  48.7552        493
  49.0137        499
  49.2722        457
  49.5307        429
  49.7892        411
  50.0477        379
  50.3062        392
  50.5647        413
  50.8232        418
  51.0817        446
  51.3402        409
  51.5987        422
  51.8572        458
  52.1157        469
  52.3742        477
  52.6327        420
  52.8912        404
  53.1497        414
  53.4082        414
  53.6667        413
  53.9252        516
  54.1837        684
  54.4422        809
  54.7007        617
  54.9592        547
  55.2177        444
  55.4763        423
  55.7348        421
  55.9933        416
  56.2518        415
  56.5103        399
  56.7688        421
  57.0273        425
  57.2858        418
  57.5443        526
  57.8028        527
  58.0613        525
  58.3198        502
  58.5783        492
  58.8368        431
  59.0953        411
  59.3538        379
  59.6123        340
  59.8708        366
  60.1293        400
  60.3878        368
  60.6463        346
  60.9048        333
  61.1633        309
  61.4218        349
  61.6803        353
  61.9388        331
  62.1973        323
  62.4559        348
  62.7144        345
  62.9729        285
  63.2314        253
  63.4899        296
  63.7484        281
  64.0069        264
  64.2654        296
  64.5239        285
  64.7824        289
  65.0409        270
  65.2994        276
  65.5579        258
  65.8164        264
  66.0749        304
  66.3334        286
  66.5919        256
  66.8504        274
  67.1089        252
  67.3674        259
  67.6259        259
  67.8844        258
  68.1429        219
  68.4014        235
  68.6599        285
  68.9184        260
  69.1769        269
  69.4355        230
  69.6940        232
  69.9525        281
  70.2110        231
  70.4695        253
  70.7280        263
  70.9865        244
  71.2450        271
  71.5035        215
  71.7620        273
  72.0205        246
  72.2790        246
  72.5375        280
  72.7960        268
  73.0545        257
  73.3130        273
  73.5715        298
  73.8300        300
  74.0885        254
  74.3470        264
  74.6055        298
  74.8640        268
  75.1225        287
  75.3810        317
  75.6395        295
  75.8980        311
  76.1565        289
  76.4151        296
  76.6736        311
  76.9321        310
  77.1906        285
  77.4491        289
  77.7076        284
  77.9661        276
  78.2246        256
  78.4831        256
  78.7416        284
  79.0001        236
  79.2586        253
  79.5171        261
  79.7756        249
  79.9943        258

File: SAIFXR190711G-02(B) .uxd
; (content of file E:\SAIF User Data\2019\Adrine Correya RS,ISP,CUSAT\190711G\SAIFXR190711G-02(B).raw)
_FILEVERSION = 2
_SAMPLE = B
_+SAMPLE =
_SITE = "Cochin Uni"
_USER = "Cochin Uni"
_GONIOMETER_CODE = 20
; Goniometer : D8 theta/2theta, stage : Unknown
_SAMPLE_CHANGER_CODE = 0
_ATTACHMENTS_CODE = 0
_GONIOMETER_RADIUS = 217.5
_FIXED_DIVSLIT = 0.15
_FIXED_SAMPLESLIT = 1
_SOLLER_SLITS = 2
_FIXED_DETSLIT = 1
_MONOCHROMATOR = 0
; Incident beam monochromator : None
_THIN_FILM = N
_BETA_FILTER = N
_FIXED_ANTISLIT = 0.15
_ANALYZER_CODE = 0
; Received beam analyzer : None
_DATEMEASURED = "15-Jul-2019 15:21:48"
_WL_UNIT = A
_WL1 = 1.5406
_WL2 = 1.54439
_WL3 = 1.39222
_WLRATIO = 0.5
_ANODE = Cu

; Data for range 1
_DRIVE = COUPLED
_STEPTIME = 59.67
_STEPSIZE = 0.0198849
_STEPMODE = C
_START = 3
_THETA = 1.5
_2THETA = 3
_KHI = 0
_PHI = 0
_X = 0
_Y = 0
_Z = 0
_DETECTOR = 5
; Detector type : Unknown
_DETECTORSLIT = out
_AUX1 = 0
_AUX2 = 0
_AUX3 = 0
_TIMESTARTED = 11
_TEMP_RATE = -1
_TEMP_DELAY = -1
_KV = 40
_MA = 40
_RANGE_WL = 1.5406
_3DPLANE = 0
_V4_COUNTERS_MASK = 4096
_V4_DRIVES_MASK = 0
_V4_ENCODERS_MASK = 0
_2THETACOUNTS = 1
; 2THETA  PSD
   3.0000       2307
   3.2585       2008
   3.5170       1777
   3.7755       1640
   4.0340       1546
   4.2925       1515
   4.5510       1566
   4.8095       1488
   5.0680       1411
   5.3265       1332
   5.5850       1257
   5.8435       1265
   6.1020       1220
   6.3605       1177
   6.6191       1135
   6.8776       1087
   7.1361       1051
   7.3946        983
   7.6531        981
   7.9116        940
   8.1701        889
   8.4286        894
   8.6871        902
   8.9456        845
   9.2041        813
   9.4626        801
   9.7211        776
   9.9796        766
  10.2381        764
  10.4966        805
  10.7551        825
  11.0136        745
  11.2721        732
  11.5306        755
  11.7891        784
  12.0476        773
  12.3061        794
  12.5646        894
  12.8231        847
  13.0816        673
  13.3401        699
  13.5987        644
  13.8572        586
  14.1157        623
  14.3742        643
  14.6327        687
  14.8912        497
  15.1497        578
  15.4082        542
  15.6667        563
  15.9252        652
  16.1837        664
  16.4422        530
  16.7007        503
  16.9592        471
  17.2177        524
  17.4762        470
  17.7347        487
  17.9932        431
  18.2517        444
  18.5102        445
  18.7687        420
  19.0272        434
  19.2857        468
  19.5442        503
  19.8027        443
  20.0612        428
  20.3197        417
  20.5783        426
  20.8368        407
  21.0953        403
  21.3538        496
  21.6123        586
  21.8708        400
  22.1293        410
  22.3878        439
  22.6463        441
  22.9048        509
  23.1633       2049
  23.4218        635
  23.6803        977
  23.9388        643
  24.1973        482
  24.4558        554
  24.7143        422
  24.9728        426
  25.2313        447
  25.4898        488
  25.7483        495
  26.0068        477
  26.2653        484
  26.5238        455
  26.7823        890
  27.0408        632
  27.2993       1052
  27.5579        688
  27.8164       2093
  28.0749        663
  28.3334        697
  28.5919        576
  28.8504        591
  29.1089        642
  29.3674        818
  29.6259       1307
  29.8844       6460
  30.1429       1805
  30.4014        896
  30.6599        619
  30.9184        502
  31.1769        437
  31.4354        499
  31.6939        498
  31.9524        434
  32.2109        587
  32.4694       1288
  32.7279       1877
  32.9864       1334
  33.2449        497
  33.5034        372
  33.7619        391
  34.0204        345
  34.2789        346
  34.5375        449
  34.7960        400
  35.0545        384
  35.3130        380
  35.5715        319
  35.8300        327
  36.0885        286
  36.3470        300
  36.6055        338
  36.8640        465
  37.1225        295
  37.3810        376
  37.6395        325
  37.8980        335
  38.1565        754
  38.4150        364
  38.6735        320
  38.9320        297
  39.1905        336
  39.4490        549
  39.7075        802
  39.9660        351
  40.2245        305
  40.4830        269
  40.7415        249
  41.0000        274
  41.2585        302
  41.5171        309
  41.7756        377
  42.0341        486
  42.2926        365
  42.5511        321
  42.8096        330
  43.0681        312
  43.3266        256
  43.5851        254
  43.8436        266
  44.1021        290
  44.3606        256
  44.6191        227
  44.8776        292
  45.1361        291
  45.3946        302
  45.6531        277
  45.9116        330
  46.1701        525
  46.4286        406
  46.6871        576
  46.9456        625
  47.2041        805
  47.4626        405
  47.7211        486
  47.9796        322
  48.2381        324
  48.4967        386
  48.7552        314
  49.0137        273
  49.2722        281
  49.5307        311
  49.7892        379
  50.0477        334
  50.3062        298
  50.5647        326
  50.8232        322
  51.0817        381
  51.3402        850
  51.5987        455
  51.8572        463
  52.1157        493
  52.3742        465
  52.6327        375
  52.8912        406
  53.1497        453
  53.4082        387
  53.6667        336
  53.9252        340
  54.1837        401
  54.4422        346
  54.7007        306
  54.9592        318
  55.2177        372
  55.4763        447
  55.7348        357
  55.9933        373
  56.2518        389
  56.5103        519
  56.7688        904
  57.0273        861
  57.2858        385
  57.5443        353
  57.8028        303
  58.0613        306
  58.3198        357
  58.5783        288
  58.8368        302
  59.0953        265
  59.3538        243
  59.6123        235
  59.8708        251
  60.1293        203
  60.3878        218
  60.6463        203
  60.9048        229
  61.1633        248
  61.4218        242
  61.6803        262
  61.9388        301
  62.1973        368
  62.4559        391
  62.7144        275
  62.9729        242
  63.2314        247
  63.4899        229
  63.7484        208
  64.0069        275
  64.2654        317
  64.5239        215
  64.7824        219
  65.0409        219
  65.2994        197
  65.5579        260
  65.8164        257
  66.0749        199
  66.3334        209
  66.5919        215
  66.8504        200
  67.1089        182
  67.3674        200
  67.6259        199
  67.8844        240
  68.1429        238
  68.4014        240
  68.6599        258
  68.9184        200
  69.1769        338
  69.4355        287
  69.6940        225
  69.9525        205
  70.2110        201
  70.4695        163
  70.7280        171
  70.9865        191
  71.2450        205
  71.5035        202
  71.7620        199
  72.0205        256
  72.2790        214
  72.5375        179
  72.7960        205
  73.0545        230
  73.3130        211
  73.5715        192
  73.8300        229
  74.0885        203
  74.3470        228
  74.6055        222
  74.8640        202
  75.1225        193
  75.3810        218
  75.6395        199
  75.8980        198
  76.1565        186
  76.4151        255
  76.6736        260
  76.9321        273
  77.1906        267
  77.4491        229
  77.7076        254
  77.9661        236
  78.2246        243
  78.4831        217
  78.7416        237
  79.0001        213
  79.2586        158
  79.5171        197
  79.7756        169
  79.9943        162

File: SAIFXR190711G-03(C) .uxd
; (content of file E:\SAIF User Data\2019\Adrine Correya RS,ISP,CUSAT\190711G\SAIFXR190711G-03(C).raw)
_FILEVERSION = 2
_SAMPLE = C
_+SAMPLE =
_SITE = "Cochin Uni"
_USER = "Cochin Uni"
_GONIOMETER_CODE = 20
; Goniometer : D8 theta/2theta, stage : Unknown
_SAMPLE_CHANGER_CODE = 0
_ATTACHMENTS_CODE = 0
_GONIOMETER_RADIUS = 217.5
_FIXED_DIVSLIT = 0.15
_FIXED_SAMPLESLIT = 1
_SOLLER_SLITS = 2
_FIXED_DETSLIT = 1
_MONOCHROMATOR = 0
; Incident beam monochromator : None
_THIN_FILM = N
_BETA_FILTER = N
_FIXED_ANTISLIT = 0.15
_ANALYZER_CODE = 0
; Received beam analyzer : None
_DATEMEASURED = "15-Jul-2019 15:59:39"
_WL_UNIT = A
_WL1 = 1.5406
_WL2 = 1.54439
_WL3 = 1.39222
_WLRATIO = 0.5
_ANODE = Cu

; Data for range 1
_DRIVE = COUPLED
_STEPTIME = 59.67
_STEPSIZE = 0.0198849
_STEPMODE = C
_START = 3
_THETA = 1.5
_2THETA = 3
_KHI = 0
_PHI = 0
_X = 0
_Y = 0
_Z = 0
_DETECTOR = 5
; Detector type : Unknown
_DETECTORSLIT = out
_AUX1 = 0
_AUX2 = 0
_AUX3 = 0
_TIMESTARTED = 16
_TEMP_RATE = -1
_TEMP_DELAY = -1
_KV = 40
_MA = 40
_RANGE_WL = 1.5406
_3DPLANE = 0
_V4_COUNTERS_MASK = 4096
_V4_DRIVES_MASK = 0
_V4_ENCODERS_MASK = 0
_2THETACOUNTS = 1
; 2THETA  PSD
   3.0000       2304
   3.2585       1935
   3.5170       1674
   3.7755       1496
   4.0340       1490
   4.2925       1468
   4.5510       1368
   4.8095       1312
   5.0680       1221
   5.3265       1219
   5.5850       1117
   5.8435       1101
   6.1020       1111
   6.3605       1077
   6.6191        997
   6.8776       1001
   7.1361        914
   7.3946       1007
   7.6531        926
   7.9116        872
   8.1701        942
   8.4286        859
   8.6871        780
   8.9456        829
   9.2041        824
   9.4626        749
   9.7211        735
   9.9796        759
  10.2381        710
  10.4966        779
  10.7551       1004
  11.0136        737
  11.2721        755
  11.5306        759
  11.7891        790
  12.0476        687
  12.3061        710
  12.5646        691
  12.8231        707
  13.0816        750
  13.3401        657
  13.5987        673
  13.8572        615
  14.1157        599
  14.3742        569
  14.6327        711
  14.8912        572
  15.1497        560
  15.4082        548
  15.6667        520
  15.9252        664
  16.1837        639
  16.4422        542
  16.7007        476
  16.9592        521
  17.2177        492
  17.4762        453
  17.7347        438
  17.9932        445
  18.2517        424
  18.5102        469
  18.7687        433
  19.0272        431
  19.2857        427
  19.5442        460
  19.8027        443
  20.0612        393
  20.3197        426
  20.5783        393
  20.8368        410
  21.0953        422
  21.3538        431
  21.6123        564
  21.8708        426
  22.1293        419
  22.3878        448
  22.6463        504
  22.9048        539
  23.1633       1722
  23.4218        665
  23.6803        702
  23.9388        644
  24.1973        471
  24.4558        575
  24.7143        472
  24.9728        453
  25.2313        423
  25.4898        467
  25.7483        470
  26.0068        418
  26.2653        459
  26.5238        510
  26.7823        710
  27.0408        622
  27.2993        903
  27.5579       1650
  27.8164       1201
  28.0749        779
  28.3334        776
  28.5919        770
  28.8504        749
  29.1089        809
  29.3674        966
  29.6259       1585
  29.8844       5313
  30.1429       1467
  30.4014        959
  30.6599        792
  30.9184        590
  31.1769        505
  31.4354        513
  31.6939        502
  31.9524        510
  32.2109        813
  32.4694       1323
  32.7279       2102
  32.9864       1393
  33.2449        484
  33.5034        372
  33.7619        449
  34.0204        434
  34.2789        396
  34.5375        536
  34.7960        420
  35.0545        375
  35.3130        421
  35.5715        301
  35.8300        322
  36.0885        320
  36.3470        307
  36.6055        348
  36.8640        433
  37.1225        323
  37.3810        315
  37.6395        399
  37.8980        440
  38.1565        651
  38.4150        435
  38.6735        383
  38.9320        314
  39.1905        378
  39.4490        536
  39.7075        814
  39.9660        371
  40.2245        331
  40.4830        300
  40.7415        276
  41.0000        300
  41.2585        301
  41.5171        340
  41.7756        357
  42.0341        393
  42.2926        355
  42.5511        356
  42.8096        422
  43.0681        294
  43.3266        290
  43.5851        289
  43.8436        302
  44.1021        318
  44.3606        315
  44.6191        319
  44.8776        380
  45.1361        409
  45.3946        408
  45.6531        355
  45.9116        381
  46.1701        416
  46.4286        501
  46.6871        754
  46.9456        655
  47.2041       1080
  47.4626        458
  47.7211        546
  47.9796        346
  48.2381        363
  48.4967        349
  48.7552        334
  49.0137        344
  49.2722        353
  49.5307        447
  49.7892        421
  50.0477        353
  50.3062        416
  50.5647        333
  50.8232        368
  51.0817        485
  51.3402        966
  51.5987        524
  51.8572        408
  52.1157        473
  52.3742        586
  52.6327        499
  52.8912        548
  53.1497        512
  53.4082        504
  53.6667        354
  53.9252        342
  54.1837        375
  54.4422        362
  54.7007        384
  54.9592        408
  55.2177        406
  55.4763        492
  55.7348        450
  55.9933        501
  56.2518        477
  56.5103        592
  56.7688       1074
  57.0273       1020
  57.2858        481
  57.5443        373
  57.8028        357
  58.0613        329
  58.3198        357
  58.5783        347
  58.8368        321
  59.0953        385
  59.3538        277
  59.6123        273
  59.8708        253
  60.1293        251
  60.3878        244
  60.6463        290
  60.9048        258
  61.1633        286
  61.4218        247
  61.6803        292
  61.9388        332
  62.1973        429
  62.4559        418
  62.7144        255
  62.9729        294
  63.2314        235
  63.4899        216
  63.7484        243
  64.0069        335
  64.2654        353
  64.5239        251
  64.7824        272
  65.0409        225
  65.2994        258
  65.5579        227
  65.8164        252
  66.0749        232
  66.3334        255
  66.5919        242
  66.8504        229
  67.1089        209
  67.3674        200
  67.6259        251
  67.8844        224
  68.1429        243
  68.4014        282
  68.6599        326
  68.9184        243
  69.1769        389
  69.4355        367
  69.6940        265
  69.9525        218
  70.2110        229
  70.4695        200
  70.7280        210
  70.9865        207
  71.2450        222
  71.5035        214
  71.7620        242
  72.0205        291
  72.2790        245
  72.5375        265
  72.7960        294
  73.0545        284
  73.3130        281
  73.5715        283
  73.8300        275
  74.0885        258
  74.3470        241
  74.6055        209
  74.8640        223
  75.1225        196
  75.3810        230
  75.6395        241
  75.8980        264
  76.1565        271
  76.4151        225
  76.6736        250
  76.9321        361
  77.1906        355
  77.4491        307
  77.7076        273
  77.9661        273
  78.2246        310
  78.4831        301
  78.7416        330
  79.0001        253
  79.2586        239
  79.5171        226
  79.7756        227
  79.9943        213