Folder: bto-mw-photocatal/xrd (part 2)

File: SAIFXR190711G-04(D) .uxd
; (content of file E:\SAIF User Data\2019\Adrine Correya RS,ISP,CUSAT\190711G\SAIFXR190711G-04(D).raw)
_FILEVERSION = 2
_SAMPLE = D
_+SAMPLE =
_SITE = "Cochin Uni"
_USER = "Cochin Uni"
_GONIOMETER_CODE = 20
; Goniometer : D8 theta/2theta, stage : Unknown
_SAMPLE_CHANGER_CODE = 0
_ATTACHMENTS_CODE = 0
_GONIOMETER_RADIUS = 217.5
_FIXED_DIVSLIT = 0.15
_FIXED_SAMPLESLIT = 1
_SOLLER_SLITS = 2
_FIXED_DETSLIT = 1
_MONOCHROMATOR = 0
; Incident beam monochromator : None
_THIN_FILM = N
_BETA_FILTER = N
_FIXED_ANTISLIT = 0.15
_ANALYZER_CODE = 0
; Received beam analyzer : None
_DATEMEASURED = "15-Jul-2019 16:34:10"
_WL_UNIT = A
_WL1 = 1.5406
_WL2 = 1.54439
_WL3 = 1.39222
_WLRATIO = 0.5
_ANODE = Cu

; Data for range 1
_DRIVE = COUPLED
_STEPTIME = 59.67
_STEPSIZE = 0.0198849
_STEPMODE = C
_START = 3
_THETA = 1.5
_2THETA = 3
_KHI = 0
_PHI = 0
_X = 0
_Y = 0
_Z = 0
_DETECTOR = 5
; Detector type : Unknown
_DETECTORSLIT = out
_AUX1 = 0
_AUX2 = 0
_AUX3 = 0
_TIMESTARTED = 11
_TEMP_RATE = -1
_TEMP_DELAY = -1
_KV = 40
_MA = 40
_RANGE_WL = 1.5406
_3DPLANE = 0
_V4_COUNTERS_MASK = 4096
_V4_DRIVES_MASK = 0
_V4_ENCODERS_MASK = 0
_2THETACOUNTS = 1
; 2THETA  PSD
   3.0000       1877
   3.2585       1651
   3.5170       1506
   3.7755       1247
   4.0340       1236
   4.2925       1127
   4.5510       1103
   4.8095       1098
   5.0680       1077
   5.3265        943
   5.5850        934
   5.8435        939
   6.1020        859
   6.3605        859
   6.6191        817
   6.8776        812
   7.1361        800
   7.3946        777
   7.6531        759
   7.9116        760
   8.1701        746
   8.4286        728
   8.6871        659
   8.9456        644
   9.2041        727
   9.4626        680
   9.7211        619
   9.9796        669
  10.2381        667
  10.4966        669
  10.7551        691
  11.0136        651
  11.2721        655
  11.5306        623
  11.7891        585
  12.0476        639
  12.3061        633
  12.5646        744
  12.8231        796
  13.0816        648
  13.3401        624
  13.5987        563
  13.8572        530
  14.1157        545
  14.3742        553
  14.6327        550
  14.8912        489
  15.1497        502
  15.4082        523
  15.6667        469
  15.9252        515
  16.1837        534
  16.4422        501
  16.7007        496
  16.9592        450
  17.2177        423
  17.4762        427
  17.7347        448
  17.9932        398
  18.2517        451
  18.5102        431
  18.7687        365
  19.0272        387
  19.2857        401
  19.5442        382
  19.8027        417
  20.0612        419
  20.3197        367
  20.5783        370
  20.8368        364
  21.0953        375
  21.3538        434
  21.6123        459
  21.8708        378
  22.1293        363
  22.3878        399
  22.6463        403
  22.9048        428
  23.1633        748
  23.4218        486
  23.6803        870
  23.9388        675
  24.1973        438
  24.4558        408
  24.7143        371
  24.9728        384
  25.2313        416
  25.4898        430
  25.7483        492
  26.0068        452
  26.2653        394
  26.5238        447
  26.7823        622
  27.0408        548
  27.2993        801
  27.5579        498
  27.8164       1855
  28.0749        576
  28.3334        477
  28.5919        482
  28.8504        475
  29.1089        512
  29.3674        655
  29.6259       1075
  29.8844       2665
  30.1429       2269
  30.4014        882
  30.6599        544
  30.9184        455
  31.1769        425
  31.4354        411
  31.6939        439
  31.9524        406
  32.2109        477
  32.4694       1002
  32.7279       1374
  32.9864        849
  33.2449        453
  33.5034        369
  33.7619        350
  34.0204        309
  34.2789        289
  34.5375        347
  34.7960        336
  35.0545        320
  35.3130        320
  35.5715        265
  35.8300        281
  36.0885        251
  36.3470        212
  36.6055        270
  36.8640        328
  37.1225        313
  37.3810        278
  37.6395        300
  37.8980        334
  38.1565        350
  38.4150        313
  38.6735        303
  38.9320        282
  39.1905        384
  39.4490        447
  39.7075        483
  39.9660        284
  40.2245        278
  40.4830        251
  40.7415        231
  41.0000        258
  41.2585        264
  41.5171        243
  41.7756        343
  42.0341        472
  42.2926        427
  42.5511        309
  42.8096        262
  43.0681        211
  43.3266        218
  43.5851        238
  43.8436        237
  44.1021        233
  44.3606        199
  44.6191        209
  44.8776        250
  45.1361        248
  45.3946        249
  45.6531        268
  45.9116        370
  46.1701        491
  46.4286        337
  46.6871        559
  46.9456        649
  47.2041        592
  47.4626        371
  47.7211        346
  47.9796        317
  48.2381        286
  48.4967        356
  48.7552        309
  49.0137        314
  49.2722        277
  49.5307        313
  49.7892        330
  50.0477        299
  50.3062        304
  50.5647        286
  50.8232        302
  51.0817        364
  51.3402        524
  51.5987        465
  51.8572        547
  52.1157        574
  52.3742        442
  52.6327        341
  52.8912        338
  53.1497        463
  53.4082        365
  53.6667        331
  53.9252        380
  54.1837        396
  54.4422        339
  54.7007        289
  54.9592        284
  55.2177        402
  55.4763        464
  55.7348        334
  55.9933        315
  56.2518        373
  56.5103        602
  56.7688        824
  57.0273        606
  57.2858        385
  57.5443        345
  57.8028        297
  58.0613        266
  58.3198        255
  58.5783        248
  58.8368        278
  59.0953        242
  59.3538        225
  59.6123        199
  59.8708        200
  60.1293        222
  60.3878        192
  60.6463        223
  60.9048        220
  61.1633        208
  61.4218        222
  61.6803        227
  61.9388        269
  62.1973        297
  62.4559        336
  62.7144        302
  62.9729        244
  63.2314        197
  63.4899        241
  63.7484        205
  64.0069        236
  64.2654        233
  64.5239        202
  64.7824        179
  65.0409        190
  65.2994        231
  65.5579        212
  65.8164        230
  66.0749        197
  66.3334        172
  66.5919        163
  66.8504        173
  67.1089        177
  67.3674        158
  67.6259        196
  67.8844        184
  68.1429        211
  68.4014        219
  68.6599        261
  68.9184        267
  69.1769        248
  69.4355        208
  69.6940        209
  69.9525        203
  70.2110        183
  70.4695        187
  70.7280        163
  70.9865        175
  71.2450        171
  71.5035        203
  71.7620        169
  72.0205        177
  72.2790        216
  72.5375        215
  72.7960        227
  73.0545        212
  73.3130        205
  73.5715        194
  73.8300        231
  74.0885        227
  74.3470        258
  74.6055        232
  74.8640        170
  75.1225        185
  75.3810        194
  75.6395        212
  75.8980        226
  76.1565        195
  76.4151        231
  76.6736        247
  76.9321        271
  77.1906        220
  77.4491        233
  77.7076        256
  77.9661        306
  78.2246        209
  78.4831        214
  78.7416        232
  79.0001        184
  79.2586        192
  79.5171        187
  79.7756        191
  79.9943        173